Folder: SHPB_Toolkit/SD_team/data

File: 316SS.txt
#FORMAT      : EMSA/MAS Spectral Data File
#VERSION     : 1.0
#TITLE       : Spectrum 2
#DATE        : 22-NOV-2024
#TIME        : 10:32
#OWNER       :
#NPOINTS     : 2048.0
#NCOLUMNS    : 1.0
#XUNITS      : keV
#YUNITS      : counts
#DATATYPE    : XY
#XPERCHAN    : 0.01
#OFFSET      : -0.2
#SIGNALTYPE  : EDS
#CHOFFSET    : 20.0
#LIVETIME    : 94.2907
#REALTIME    : 96.913
#BEAMKV      : 20.0
#MAGCAM      : 60.0
#XTILTSTGE   : 0.0
#AZIMANGLE   : 0.0
#ELEVANGLE   : 35.0
#XPOSITION mm: 27.1809
#YPOSITION mm: 30.9046
#ZPOSITION mm: 10.0000
##OXINSTPT   : 4
##OXINSTSTROB: 48.88
##OXINSTNDET : 1
##OXINSTELEMS: 24	26	6	28	25	14	42
##OXINSTLABEL: 24	5.415	 Cr
##OXINSTLABEL: 24	5.947	 Cr
##OXINSTLABEL: 24	0.573	 Cr
##OXINSTLABEL: 24	0.5	 Cr
##OXINSTLABEL: 26	6.404	 Fe
##OXINSTLABEL: 26	7.058	 Fe
##OXINSTLABEL: 26	0.703	 Fe
##OXINSTLABEL: 26	0.615	 Fe
##OXINSTLABEL: 6	0.277	 C
##OXINSTLABEL: 28	7.478	 Ni
##OXINSTLABEL: 28	8.265	 Ni
##OXINSTLABEL: 28	0.851	 Ni
##OXINSTLABEL: 28	0.762	 Ni
##OXINSTLABEL: 28	0.743	 Ni
##OXINSTLABEL: 25	5.899	 Mn
##OXINSTLABEL: 25	6.49	 Mn
##OXINSTLABEL: 25	0.636	 Mn
##OXINSTLABEL: 25	0.556	 Mn
##OXINSTLABEL: 14	1.74	 Si
##OXINSTLABEL: 42	17.48	 Mo
##OXINSTLABEL: 42	19.609	 Mo
##OXINSTLABEL: 42	19.965	 Mo
##OXINSTLABEL: 42	2.293	 Mo
##OXINSTLABEL: 42	2.395	 Mo
##OXINSTLABEL: 42	2.12	 Mo
##OXINSTLABEL: 42	2.831	 Mo
##OXINSTLABEL: 42	2.016	 Mo
##OXINSTLABEL: 42	0.193	 Mo
#SPECTRUM    : Spectral Data Starts Here
-0.2	0
-0.13	0
-0.06	8
0.01	2778
0.08	1131
0.15	65
0.22	134
0.29	310
0.36	99
0.43	170
0.5	558
0.57	788
0.64	868
0.71	2149
0.78	264
0.85	602
0.92	167
0.99	106
1.06	106
1.13	147
1.2	137
1.27	142
1.34	188
1.41	190
1.48	220
1.55	199
1.62	197
1.69	238
1.76	333
1.83	238
1.9	213
1.97	218
2.04	222
2.11	226
2.18	248
2.25	354
2.32	497
2.39	352
2.46	276
2.53	246
2.6	218
2.67	213
2.74	204
2.81	206
2.88	198
2.95	215
3.02	194
3.09	218
3.16	204
3.23	182
3.3	206
3.37	181
3.44	171
3.51	167
3.58	196
3.65	201
3.72	177
3.79	188
3.86	159
3.93	168
4	167
4.07	148
4.14	137
4.21	160
4.28	145
4.35	136
4.42	140
4.49	147
4.56	152
4.63	149
4.7	156
4.77	113
4.84	125
4.91	137
4.98	142
5.05	114
5.12	132
5.19	122
5.26	150
5.33	744
5.4	2376
5.47	1484
5.54	268
5.61	124
5.68	122
5.75	106
5.82	188
5.89	438
5.96	510
6.03	217
6.1	98
6.17	92
6.24	220
6.31	1562
6.38	4867
6.45	3684
6.52	703
6.59	131
6.66	85
6.73	87
6.8	86
6.87	101
6.94	231
7.01	599
7.08	695
7.15	264
7.22	90
7.29	59
7.36	191
7.43	531
7.5	627
7.57	236
7.64	83
7.71	54
7.78	57
7.85	53
7.92	76
7.99	76
8.06	68
8.13	77
8.2	119
8.27	134
8.34	86
8.41	59
8.48	54
8.55	57
8.62	48
8.69	53
8.76	34
8.83	37
8.9	50
8.97	54
9.04	44
9.11	53
9.18	44
9.25	48
9.32	46
9.39	46
9.46	39
9.53	37
9.6	43
9.67	42
9.74	30
9.81	32
9.88	41
9.95	42
10.02	44
10.09	35
10.16	40
10.23	42
10.3	38
10.37	34
10.44	36
10.51	28
10.58	34
10.65	31
10.72	32
10.79	38
10.86	28
10.93	36
11	31
11.07	28
11.14	31
11.21	27
11.28	26
11.35	23
11.42	29
11.49	24
11.56	22
11.63	24
11.7	26
11.77	27
11.84	27
11.91	26
11.98	29
12.05	21
12.12	27
12.19	22
12.26	20
12.33	28
12.4	18
12.47	25
12.54	21
12.61	16
12.68	21
12.75	25
12.82	25
12.89	24
12.96	18
13.03	22
13.1	27
13.17	19
13.24	17
13.31	10
13.38	17
13.45	20
13.52	21
13.59	14
13.66	12
13.73	19
13.8	13
13.87	19
13.94	10
14.01	16
14.08	11
14.15	17
14.22	15
14.29	12
14.36	14
14.43	13
14.5	11
14.57	10
14.64	15
14.71	13
14.78	8
14.85	12
14.92	10
14.99	8
15.06	8
15.13	12
15.2	8
15.27	7
15.34	7
15.41	9
15.48	7
15.55	9
15.62	10
15.69	6
15.76	5
15.83	6
15.9	8
15.97	8
16.04	8
16.11	7
16.18	6
16.25	7
16.32	5
16.39	6
16.46	6
16.53	5
16.6	5
16.67	8
16.74	5
16.81	5
16.88	2
16.95	4
17.02	4
17.09	4
17.16	5
17.23	4
17.3	3
17.37	4
17.44	2
17.51	5
17.58	3
17.65	2
17.72	3
17.79	3
17.86	5
17.93	2
18	4
18.07	3
18.14	2
18.21	2
18.28	3
18.35	3
18.42	1
18.49	1
18.56	1
18.63	2
18.7	1
18.77	2
18.84	0
18.91	3
18.98	1
19.05	1
19.12	1
19.19	0
19.26	1
19.33	1
19.4	0
19.47	3
19.54	0
19.61	0
19.68	1
19.75	0
19.82	0
19.89	0
19.96	1
20.03	0
20.1	0
20.17	0
20.24	0
20.27	0
#ENDOFDATA   :

File: SS_Spectrum 0 1.txt
#FORMAT      : EMSA/MAS Spectral Data File
#VERSION     : 1.0
#TITLE       : Spectrum 2
#DATE        : 22-NOV-2024
#TIME        : 10:32
#OWNER       :
#NPOINTS     : 2048.0
#NCOLUMNS    : 1.0
#XUNITS      : keV
#YUNITS      : counts
#DATATYPE    : XY
#XPERCHAN    : 0.01
#OFFSET      : -0.2
#SIGNALTYPE  : EDS
#CHOFFSET    : 20.0
#LIVETIME    : 94.2907
#REALTIME    : 96.913
#BEAMKV      : 20.0
#MAGCAM      : 60.0
#XTILTSTGE   : 0.0
#AZIMANGLE   : 0.0
#ELEVANGLE   : 35.0
#XPOSITION mm: 27.1809
#YPOSITION mm: 30.9046
#ZPOSITION mm: 10.0000
##OXINSTPT   : 4
##OXINSTSTROB: 48.88
##OXINSTNDET : 1
##OXINSTELEMS: 24,26,6,28,25,14,42
##OXINSTLABEL: 24, 5.415, Cr
##OXINSTLABEL: 24, 5.947, Cr
##OXINSTLABEL: 24, 0.573, Cr
##OXINSTLABEL: 24, 0.500, Cr
##OXINSTLABEL: 26, 6.404, Fe
##OXINSTLABEL: 26, 7.058, Fe
##OXINSTLABEL: 26, 0.703, Fe
##OXINSTLABEL: 26, 0.615, Fe
##OXINSTLABEL: 6, 0.277, C
##OXINSTLABEL: 28, 7.478, Ni
##OXINSTLABEL: 28, 8.265, Ni
##OXINSTLABEL: 28, 0.851, Ni
##OXINSTLABEL: 28, 0.762, Ni
##OXINSTLABEL: 28, 0.743, Ni
##OXINSTLABEL: 25, 5.899, Mn
##OXINSTLABEL: 25, 6.490, Mn
##OXINSTLABEL: 25, 0.636, Mn
##OXINSTLABEL: 25, 0.556, Mn
##OXINSTLABEL: 14, 1.740, Si
##OXINSTLABEL: 42, 17.480, Mo
##OXINSTLABEL: 42, 19.609, Mo
##OXINSTLABEL: 42, 19.965, Mo
##OXINSTLABEL: 42, 2.293, Mo
##OXINSTLABEL: 42, 2.395, Mo
##OXINSTLABEL: 42, 2.120, Mo
##OXINSTLABEL: 42, 2.831, Mo
##OXINSTLABEL: 42, 2.016, Mo
##OXINSTLABEL: 42, 0.193, Mo
#SPECTRUM    : Spectral Data Starts Here
-0.20000, 0.0
-0.13000, 0.0
-0.06000, 8.0
0.01000, 2778.0
0.08000, 1131.0
0.15000, 65.0
0.22000, 134.0
0.29000, 310.0
0.36000, 99.0
0.43000, 170.0
0.50000, 558.0
0.57000, 788.0
0.64000, 868.0
0.71000, 2149.0
0.78000, 264.0
0.85000, 602.0
0.92000, 167.0
0.99000, 106.0
1.06000, 106.0
1.13000, 147.0
1.20000, 137.0
1.27000, 142.0
1.34000, 188.0
1.41000, 190.0
1.48000, 220.0
1.55000, 199.0
1.62000, 197.0
1.69000, 238.0
1.76000, 333.0
1.83000, 238.0
1.90000, 213.0
1.97000, 218.0
2.04000, 222.0
2.11000, 226.0
2.18000, 248.0
2.25000, 354.0
2.32000, 497.0
2.39000, 352.0
2.46000, 276.0
2.53000, 246.0
2.60000, 218.0
2.67000, 213.0
2.74000, 204.0
2.81000, 206.0
2.88000, 198.0
2.95000, 215.0
3.02000, 194.0
3.09000, 218.0
3.16000, 204.0
3.23000, 182.0
3.30000, 206.0
3.37000, 181.0
3.44000, 171.0
3.51000, 167.0
3.58000, 196.0
3.65000, 201.0
3.72000, 177.0
3.79000, 188.0
3.86000, 159.0
3.93000, 168.0
4.00000, 167.0
4.07000, 148.0
4.14000, 137.0
4.21000, 160.0
4.28000, 145.0
4.35000, 136.0
4.42000, 140.0
4.49000, 147.0
4.56000, 152.0
4.63000, 149.0
4.70000, 156.0
4.77000, 113.0
4.84000, 125.0
4.91000, 137.0
4.98000, 142.0
5.05000, 114.0
5.12000, 132.0
5.19000, 122.0
5.26000, 150.0
5.33000, 744.0
5.40000, 2376.0
5.47000, 1484.0
5.54000, 268.0
5.61000, 124.0
5.68000, 122.0
5.75000, 106.0
5.82000, 188.0
5.89000, 438.0
5.96000, 510.0
6.03000, 217.0
6.10000, 98.0
6.17000, 92.0
6.24000, 220.0
6.31000, 1562.0
6.38000, 4867.0
6.45000, 3684.0
6.52000, 703.0
6.59000, 131.0
6.66000, 85.0
6.73000, 87.0
6.80000, 86.0
6.87000, 101.0
6.94000, 231.0
7.01000, 599.0
7.08000, 695.0
7.15000, 264.0
7.22000, 90.0
7.29000, 59.0
7.36000, 191.0
7.43000, 531.0
7.50000, 627.0
7.57000, 236.0
7.64000, 83.0
7.71000, 54.0
7.78000, 57.0
7.85000, 53.0
7.92000, 76.0
7.99000, 76.0
8.06000, 68.0
8.13000, 77.0
8.20000, 119.0
8.27000, 134.0
8.34000, 86.0
8.41000, 59.0
8.48000, 54.0
8.55000, 57.0
8.62000, 48.0
8.69000, 53.0
8.76000, 34.0
8.83000, 37.0
8.90000, 50.0
8.97000, 54.0
9.04000, 44.0
9.11000, 53.0
9.18000, 44.0
9.25000, 48.0
9.32000, 46.0
9.39000, 46.0
9.46000, 39.0
9.53000, 37.0
9.60000, 43.0
9.67000, 42.0
9.74000, 30.0
9.81000, 32.0
9.88000, 41.0
9.95000, 42.0
10.02000, 44.0
10.09000, 35.0
10.16000, 40.0
10.23000, 42.0
10.30000, 38.0
10.37000, 34.0
10.44000, 36.0
10.51000, 28.0
10.58000, 34.0
10.65000, 31.0
10.72000, 32.0
10.79000, 38.0
10.86000, 28.0
10.93000, 36.0
11.00000, 31.0
11.07000, 28.0
11.14000, 31.0
11.21000, 27.0
11.28000, 26.0
11.35000, 23.0
11.42000, 29.0
11.49000, 24.0
11.56000, 22.0
11.63000, 24.0
11.70000, 26.0
11.77000, 27.0
11.84000, 27.0
11.91000, 26.0
11.98000, 29.0
12.05000, 21.0
12.12000, 27.0
12.19000, 22.0
12.26000, 20.0
12.33000, 28.0
12.40000, 18.0
12.47000, 25.0
12.54000, 21.0
12.61000, 16.0
12.68000, 21.0
12.75000, 25.0
12.82000, 25.0
12.89000, 24.0
12.96000, 18.0
13.03000, 22.0
13.10000, 27.0
13.17000, 19.0
13.24000, 17.0
13.31000, 10.0
13.38000, 17.0
13.45000, 20.0
13.52000, 21.0
13.59000, 14.0
13.66000, 12.0
13.73000, 19.0
13.80000, 13.0
13.87000, 19.0
13.94000, 10.0
14.01000, 16.0
14.08000, 11.0
14.15000, 17.0
14.22000, 15.0
14.29000, 12.0
14.36000, 14.0
14.43000, 13.0
14.50000, 11.0
14.57000, 10.0
14.64000, 15.0
14.71000, 13.0
14.78000, 8.0
14.85000, 12.0
14.92000, 10.0
14.99000, 8.0
15.06000, 8.0
15.13000, 12.0
15.20000, 8.0
15.27000, 7.0
15.34000, 7.0
15.41000, 9.0
15.48000, 7.0
15.55000, 9.0
15.62000, 10.0
15.69000, 6.0
15.76000, 5.0
15.83000, 6.0
15.90000, 8.0
15.97000, 8.0
16.04000, 8.0
16.11000, 7.0
16.18000, 6.0
16.25000, 7.0
16.32000, 5.0
16.39000, 6.0
16.46000, 6.0
16.53000, 5.0
16.60000, 5.0
16.67000, 8.0
16.74000, 5.0
16.81000, 5.0
16.88000, 2.0
16.95000, 4.0
17.02000, 4.0
17.09000, 4.0
17.16000, 5.0
17.23000, 4.0
17.30000, 3.0
17.37000, 4.0
17.44000, 2.0
17.51000, 5.0
17.58000, 3.0
17.65000, 2.0
17.72000, 3.0
17.79000, 3.0
17.86000, 5.0
17.93000, 2.0
18.00000, 4.0
18.07000, 3.0
18.14000, 2.0
18.21000, 2.0
18.28000, 3.0
18.35000, 3.0
18.42000, 1.0
18.49000, 1.0
18.56000, 1.0
18.63000, 2.0
18.70000, 1.0
18.77000, 2.0
18.84000, 0.0
18.91000, 3.0
18.98000, 1.0
19.05000, 1.0
19.12000, 1.0
19.19000, 0.0
19.26000, 1.0
19.33000, 1.0
19.40000, 0.0
19.47000, 3.0
19.54000, 0.0
19.61000, 0.0
19.68000, 1.0
19.75000, 0.0
19.82000, 0.0
19.89000, 0.0
19.96000, 1.0
20.03000, 0.0
20.10000, 0.0
20.17000, 0.0
20.24000, 0.0
20.27000, 0.0
#ENDOFDATA   :